PAT9000 PMD Jones-Matrix-Measurement   ThorLabs GmbH
Date: 01-01-1997    Time: 01:46:55
[FIBRE]
FIBRE_LENGTH [km]: 1.000
[WAVELENGTH]
START        [nm]: 1530.000
STOP         [nm]: 1534.100
STEP         [nm]:    0.100
POINTS           :       42
[PMD_DATA]
PMD_MIN      [ps]:    2.034
PMD_MAX      [ps]:    2.384
PMD_AVG      [ps]:    2.213
PMD_RMS      [ps]:    2.215
PMD_SKM  [ps/skm]:    2.215
LAMBDA [nm]        PMD [ps]       PSPout s1           s2           s3
   1530.000,          2.157,        0.837,       -0.144,        0.528,
   1530.100,          2.157,        0.837,       -0.144,        0.528,
   1530.200,          2.121,        0.842,       -0.170,        0.512,
   1530.300,          2.091,        0.828,       -0.152,        0.540,
   1530.400,          2.087,        0.834,       -0.152,        0.531,
   1530.500,          2.146,        0.826,       -0.168,        0.538,
   1530.600,          2.046,        0.830,       -0.147,        0.538,
   1530.700,          2.214,        0.833,       -0.167,        0.527,
   1530.800,          2.034,        0.841,       -0.163,        0.517,
   1530.900,          2.126,        0.826,       -0.146,        0.544,
   1531.000,          2.161,        0.827,       -0.153,        0.541,
   1531.100,          2.173,        0.831,       -0.168,        0.530,
   1531.200,          2.090,        0.842,       -0.154,        0.517,
   1531.300,          2.244,        0.826,       -0.161,        0.540,
   1531.400,          2.156,        0.847,       -0.163,        0.506,
   1531.500,          2.247,        0.823,       -0.146,        0.549,
   1531.600,          2.202,        0.832,       -0.147,        0.535,
   1531.700,          2.165,        0.842,       -0.165,        0.514,
   1531.800,          2.228,        0.819,       -0.149,        0.554,
   1531.900,          2.101,        0.845,       -0.167,        0.508,
   1532.000,          2.206,        0.821,       -0.155,        0.550,
   1532.100,          2.231,        0.834,       -0.163,        0.526,
   1532.200,          2.144,        0.850,       -0.158,        0.502,
   1532.300,          2.307,        0.822,       -0.138,        0.552,
   1532.400,          2.245,        0.833,       -0.158,        0.530,
   1532.500,          2.246,        0.830,       -0.169,        0.532,
   1532.600,          2.205,        0.831,       -0.141,        0.538,
   1532.700,          2.347,        0.835,       -0.157,        0.528,
   1532.800,          2.260,        0.835,       -0.150,        0.529,
   1532.900,          2.293,        0.836,       -0.154,        0.526,
   1533.000,          2.300,        0.829,       -0.158,        0.537,
   1533.100,          2.267,        0.831,       -0.171,        0.529,
   1533.200,          2.263,        0.842,       -0.144,        0.519,
   1533.300,          2.344,        0.838,       -0.160,        0.522,
   1533.400,          2.258,        0.823,       -0.153,        0.547,
   1533.500,          2.384,        0.830,       -0.149,        0.538,
   1533.600,          2.206,        0.832,       -0.152,        0.534,
   1533.700,          2.360,        0.823,       -0.174,        0.541,
   1533.800,          2.190,        0.848,       -0.151,        0.508,
   1533.900,          2.306,        0.829,       -0.136,        0.543,
   1534.000,          2.262,        0.833,       -0.156,        0.530,
   1534.100,          2.324,        0.840,       -0.160,        0.518,
