PAT9000 PMD Jones-Matrix-Measurement   ThorLabs GmbH
Date: 01-01-1997    Time: 01:16:56
[FIBRE]
FIBRE_LENGTH [km]: 1.000
[WAVELENGTH]
START        [nm]: 1530.000
STOP         [nm]: 1535.000
STEP         [nm]:    0.100
POINTS           :       51
[PMD_DATA]
PMD_MIN      [ps]:    2.055
PMD_MAX      [ps]:    2.324
PMD_AVG      [ps]:    2.208
PMD_RMS      [ps]:    2.209
PMD_SKM  [ps/skm]:    2.209
LAMBDA [nm]        PMD [ps]       PSPout s1           s2           s3
   1530.000,          2.118,        0.499,        0.685,        0.531,
   1530.100,          2.118,        0.499,        0.685,        0.531,
   1530.200,          2.055,        0.528,        0.648,        0.549,
   1530.300,          2.102,        0.511,        0.642,        0.572,
   1530.400,          2.073,        0.521,        0.666,        0.534,
   1530.500,          2.134,        0.517,        0.659,        0.547,
   1530.600,          2.064,        0.514,        0.654,        0.555,
   1530.700,          2.145,        0.518,        0.640,        0.567,
   1530.800,          2.085,        0.523,        0.655,        0.544,
   1530.900,          2.108,        0.513,        0.656,        0.554,
   1531.000,          2.164,        0.519,        0.652,        0.552,
   1531.100,          2.186,        0.525,        0.650,        0.550,
   1531.200,          2.135,        0.508,        0.656,        0.558,
   1531.300,          2.242,        0.514,        0.665,        0.543,
   1531.400,          2.171,        0.529,        0.640,        0.557,
   1531.500,          2.206,        0.514,        0.663,        0.544,
   1531.600,          2.117,        0.502,        0.652,        0.568,
   1531.700,          2.233,        0.541,        0.650,        0.533,
   1531.800,          2.133,        0.519,        0.642,        0.564,
   1531.900,          2.202,        0.531,        0.654,        0.538,
   1532.000,          2.161,        0.491,        0.684,        0.539,
   1532.100,          2.241,        0.531,        0.636,        0.560,
   1532.200,          2.194,        0.489,        0.657,        0.574,
   1532.300,          2.257,        0.537,        0.657,        0.529,
   1532.400,          2.215,        0.520,        0.638,        0.568,
   1532.500,          2.251,        0.514,        0.675,        0.530,
   1532.600,          2.179,        0.526,        0.638,        0.562,
   1532.700,          2.322,        0.509,        0.664,        0.548,
   1532.800,          2.188,        0.528,        0.643,        0.555,
   1532.900,          2.288,        0.501,        0.669,        0.548,
   1533.000,          2.267,        0.540,        0.643,        0.543,
   1533.100,          2.236,        0.508,        0.653,        0.562,
   1533.200,          2.241,        0.511,        0.675,        0.533,
   1533.300,          2.324,        0.519,        0.638,        0.569,
   1533.400,          2.204,        0.533,        0.645,        0.548,
   1533.500,          2.323,        0.492,        0.665,        0.562,
   1533.600,          2.229,        0.537,        0.653,        0.535,
   1533.700,          2.315,        0.529,        0.652,        0.543,
   1533.800,          2.218,        0.507,        0.663,        0.550,
   1533.900,          2.287,        0.512,        0.671,        0.536,
   1534.000,          2.321,        0.513,        0.642,        0.569,
   1534.100,          2.211,        0.519,        0.665,        0.537,
   1534.200,          2.233,        0.513,        0.640,        0.572,
   1534.300,          2.264,        0.515,        0.668,        0.537,
   1534.400,          2.238,        0.528,        0.646,        0.551,
   1534.500,          2.227,        0.501,        0.672,        0.545,
   1534.600,          2.279,        0.522,        0.650,        0.552,
   1534.700,          2.256,        0.531,        0.634,        0.562,
   1534.800,          2.252,        0.509,        0.678,        0.530,
   1534.900,          2.261,        0.528,        0.650,        0.547,
   1535.000,          2.243,        0.505,        0.648,        0.570,
